Folder: GitHub_Trustworthy-Battery-AI/data

Note: data/cell cycle schema.json
{
  "schema_version": "1.0.0",
  "schema_name": "battery_cycling_data",
  "description": "Schema for time-series battery cycling data used in state estimation tasks",
  "last_updated": "2025-11-12",
  "fields": [
    {
      "name": "cycle_index",
      "type": "integer",
      "description": "Sequential cycle number starting from 1",
      "required": true,
      "constraints": {
        "min": 1
      }
    },
    {
      "name": "timestamp",
      "type": "float",
      "description": "Relative time from start of cycling in seconds",
      "required": true,
      "unit": "seconds",
      "constraints": {
        "min": 0
      }
    },
    {
      "name": "voltage",
      "type": "float",
      "description": "Terminal voltage of the battery",
      "required": true,
      "unit": "V",
      "constraints": {
        "min": 2.0,
        "max": 4.5
      }
    },
    {
      "name": "current",
      "type": "float",
      "description": "Charge/discharge current (positive for charge, negative for discharge)",
      "required": true,
      "unit": "A",
      "constraints": {
        "min": -10.0,
        "max": 10.0
      }
    },
    {
      "name": "temperature",
      "type": "float",
      "description": "Battery surface or ambient temperature",
      "required": true,
      "unit": "Â°C",
      "constraints": {
        "min": -20.0,
        "max": 80.0
      }
    },
    {
      "name": "capacity",
      "type": "float",
      "description": "Measured discharge capacity for the cycle",
      "required": true,
      "unit": "Ah",
      "constraints": {
        "min": 0.0
      }
    },

    {
      "name": "charge_type",
      "type": "string",
      "description": "Type of charge/discharge operation",
      "required": false,
      "allowed_values": ["CC_charge", "CV_charge", "CC_discharge", "rest"]
    }
  ],
  "data_quality": {
    "missing_value_handling": "Linear interpolation for short gaps (<5 points), discard cycles with >10% missing data",
    "outlier_detection": "Remove measurements outside 3 sigma from moving average",
    "sampling_rate": "Recommended: 1 Hz minimum, 10 Hz preferred"
  },
  "usage_notes": [
    "Each row represents aggregate measurements for one complete cycle",
    "For time-series within-cycle data, use higher temporal resolution",
    "Ensure voltage/current signs follow convention: discharge current is negative"
  ],
  "example_file": "examples/sample_cycles.csv"
}

Note: README.md
# Trustworthy Battery AI (Skeleton Repository)


> **Note:** This is a skeleton repository, not a complete implementation. It provides structure, templates, and starter code that teams can extend for their specific battery AI projects.

##  Overview

**Trustworthy Battery AI** is a structural framework designed to standardize the development of AI models for battery lifecycle management. It aims to solve the problem of inconsistent code organization by providing:

*  Clear, Unified Directory Structure**: Standardized layout for data and models.
*  Reusable Governance Templates**: Schemas for documentation and model auditing.
*  Runnable Baseline Scaffolding**: Simplified but executable pipelines for **SOH** (State of Health) and **RUL** (Remaining Useful Life) tasks.
*  Starter Notebooks**: End-to-end workflows for immediate onboarding.

---

At the top level, the repo includes four main components:

- `data/`: JSON example schemas and CSV mock data
- `models/`: Simplified model skeletons (Linear Regression, Random Forest, LSTM, etc.)
- `benchmark stubs/`: Two baseline task stubs for SOH and RUL
- `notebooks/`: End-to-end examples for data loading and model training

---
##  Component Details

### 1. `data/`: Data Schemas and Mock Data
*Note: This directory does not contain real production data. It serves only to demonstrate data formats and metadata structures.*

* **`data/cell_cycle_schema.json`**
    * Defines the JSON schema structure for battery data.
    * **Fields:** `cycle_number`, `voltage_v`, `current_A`, `temperature`, `capacity_ah`, `charge_type`, etc.
* **`data/cycles_example.csv`**
    * Synthetic battery data aligned with the schema for testing purposes.

### 2. `models/`: Baseline Model Registry
*Stores reusable model definitions for use in benchmark scripts and notebooks.*

* **`baseline_lr.py` (Linear Regression)**
    * **Implementation:** Least Squares / Ridge Regression.
    * **Interface:** Aligned with `sklearn` style (`fit(X, y)` + `predict(X)`).
    * **Focus:** Interface standardization and callability rather than high precision.
* **`baseline_rf.py` (Random Forest - Optional)**
    * **Implementation:** Wrapper based on `sklearn.ensemble.RandomForestRegressor`.
    * **Focus:** Serves as a non-linear baseline example to facilitate future extension to complex models.
* **`baseline_lstm.py` (LSTM - Optional)**
    * **Implementation:** Minimalist LSTM regression using **PyTorch**.
    * **Input Support:** `(n_samples, n_features)` or `(n_samples, seq_len, n_features)`.
    * **Focus:** Demonstrates how to encapsulate time-series models into a unified interface.

### 3. `benchmark_stubs/`: SOH / RUL Task Scaffolding
*Contains executable "skeleton scripts" that run through the logic. These are not full production pipelines.*

####  `soh.py`: State of Health (SOH) Assessment
* **Core Workflow:**
    1.  **Data Loading:** Loads toy data and constructs feature matrix $X$ (

File: cycles_example.csv
cycle_number,time_s,current_A,voltage_v,capacity_ah,temperature,status
1,0,0,2.04,0,25,rest
1,300,1.1,2.18,0.2,25,cc_charge
1,1800,1.1,2.59,0.4,25,cc_charge
1,3600,1.1,3.31,0.6,25,cc_charge
1,7200,1.1,3.6,0.8,25,cc_charge
1,10800,1,3.6,0.95,25,cv_charge
1,14400,0.5,3.6,1.05,25,cv_charge
1,18000,0.3,3.6,1.1,25,cv_charge
1,21000,0,3.6,1.1,25,rest
1,21500,-1.1,3.49,0.9,25,cc_discharge
1,25000,-1.1,3.18,0.7,25,cc_discharge
1,28000,-1.1,2.97,0.5,25,cc_discharge
1,31000,-1.1,2.77,0.3,25,cc_discharge
1,34000,-1.1,2.62,0.1,25,cc_discharge
1,37000,0,2,0,25,rest
2,300,1.1,2.18,0.2,25,cc_charge
2,1800,1.1,2.59,0.4,25,cc_charge
2,3600,1.1,3.31,0.6,25,cc_charge
2,7200,1.1,3.6,0.8,25,cc_charge
2,10800,1,3.6,0.95,25,cv_charge
2,14400,0.5,3.6,1.05,25,cv_charge
2,18000,0.3,3.6,1.1,25,cv_charge
2,21000,0,3.6,1.1,25,rest
2,21500,-1.1,3.49,0.9,25,cc_discharge
2,25000,-1.1,3.18,0.7,25,cc_discharge
2,28000,-1.1,2.97,0.5,25,cc_discharge
2,31000,-1.1,2.77,0.3,25,cc_discharge
2,34000,-1.1,2.62,0.1,25,cc_discharge
2,37000,0,2,0,25,rest